File: src/etc/data/comp/Protected_Ag_mirror.dat
#Wavelength[nm] Reflectance[%]
# Thorlabs P01 Protected Silver mirror coating (from https://www.thorlabs.com/newgrouppage9.cfm?objectgroup_id=903)
230.00  32.05956
250.00  16.80748
270.00  33.42666
300.00  21.60199
320.00  36.95072
340.00  83.17188
360.00  83.30160
380.00  82.19792
400.00  88.71807
420.00  93.09852
440.00  95.12392
460.00  96.07818
480.00  96.43713
500.00  96.55209
520.00  96.42279
540.00  96.33421
560.00  96.21805
580.00  95.90400
600.00  95.75384
620.00  95.72144
640.00  95.71157
660.00  95.68295
680.00  95.58834
700.00  95.39356
720.00  95.09069
740.00  95.17128
760.00  95.30012
780.00  95.39596
800.00  95.53123
820.00  95.94608
840.00  95.97104
860.00  96.31097
880.00  96.46647
900.00  96.60538
920.00  96.65579
940.00  96.78773
960.00  96.88112
980.00  96.93297
1000.00  97.01422
1020.00  97.09801
1040.00  97.20977
1060.00  97.26743
1080.00  97.33862
1100.00  97.40065
1120.00  97.45601
1140.00  97.53817
1160.00  97.57860
1180.00  97.63232
1200.00  97.68021
1220.00  97.70758
1240.00  97.79703
1260.00  97.83409
1280.00  97.88515
1300.00  97.91726
1320.00  97.95990
1340.00  97.96649
1360.00  97.98515
1380.00  98.04948
1400.00  98.06910
1420.00  98.09829
1440.00  98.11229
1460.00  98.16698
1480.00  98.20194
1500.00  98.17338
1520.00  98.19344
1540.00  98.21376
1560.00  98.19184
1580.00  98.21208
1600.00  98.23722
1620.00  98.29176
1640.00  98.31581
1660.00  98.34766
1680.00  98.35663
1700.00  98.37451
1720.00  98.39579
1740.00  98.36053
1760.00  98.32271
1780.00  98.34846
1800.00  98.31576
1820.00  98.32699
1840.00  98.33144
1860.00  98.39184
1880.00  98.41867
1900.00  98.42724
1920.00  98.48641
1940.00  98.51619
1960.00  98.49712
1980.00  98.51520
2000.00  98.53192
2020.00  98.54165
2040.00  98.49855
2060.00  98.48048
2080.00  98.44520
2100.00  98.42801
2120.00  98.39905
2140.00  98.35844
2160.00  98.42947
2180.00  98.40447
2200.00  98.37181
2220.00  98.40268
2240.00  98.33822
2260.00  98.48460
2280.00  98.43358
2300.00  98.49192
2320.00  98.43042
2340.00  98.45347
2360.00  98.53161
2380.00  98.48028
2400.00  98.39566
2420.00  98.35610
2440.00  98.45449
2460.00  98.45216
2480.00  98.67474
2500.00  98.51074
2520.00  98.47551
2540.00  98.53713
2560.00  98.37758
2580.00  98.34861
2600.00  98.39774
2619.73  98.57427
2639.59  98.58479
2659.71  98.54557
2679.54  98.55765
2699.63  98.56993
2719.70  98.58293
2739.48  98.59710
2759.51  98.61144
2779.53  98.57642
2799.53  98.54203
2819.51  98.50826
2839.47  98.47509
2859.41  98.44251
2879.61  98.41009
2899.52  98.37867
2919.41  98.34781
2939.55  98.31712
2959.40  98.28738
2979.50  98.25781
2999.58  98.22880
3019.37  98.20069
3039.41  98.17276
3059.43  98.14537
3079.43  98.11851
3099.41  98.09218
3119.37  98.06637
3139.31  98.04107
3159.23  98.01629
3179.39  97.99172
3199.27  97.96794
3219.39  97.94438
3239.22  97.92160
3259.30  97.89903
3279.36  97.87695
3299.39  97.85536
3319.14  97.83448
3339.12  97.81383
3359.36  97.79341
3379.30  97.77369
3399.22  97.75442
3419.11  97.73560
3439.25  97.71702
3459.10  97.69907
3479.19  97.68137
3499.25  97.66409
3519.03  97.64743
3539.04  97.63099
3559.03  97.61498
3579.00  97.59936
3599.20  97.58400
3619.11  97.56918
3639.00  97.55476
3659.13  97.54057
3678.97  97.52691
3699.04  97.51348
3719.08  97.50042
3739.10  97.48773
3759.09  97.47540
3779.06  97.46342
3798.99  97.45178
3818.90  97.44049
3839.04  97.42943
3858.90  97.41879
3878.98  97.40839
3899.03  97.39831
3919.06  97.38855
3938.80  97.37917
3959.02  97.36994
3978.96  97.36109
3998.87  97.35253
4019.00  97.34419
4038.85  97.33620
4058.92  97.32842
4078.96  97.32092
4098.72  97.31373
4118.70  97.30676
4138.90  97.30000
4158.82  97.29354
4178.70  97.28732
4198.81  97.28131
4218.88  97.27554
4238.67  97.27003
4258.67  97.26472
4278.65  97.25963
4298.83  97.25474
4318.74  97.25009
4338.61  97.24564
4358.70  97.24138
4378.75  97.23733
4398.76  97.23347
4418.75  97.22980
4438.69  97.22632
4458.60  97.22302
4478.72  97.21989
4498.56  97.21694
4518.60  97.21416
4538.61  97.21155
4558.59  97.20909
4578.52  97.20680
4598.66  97.20466
4618.52  97.20267
4638.58  97.20083
4658.61  97.19913
4678.59  97.19757
4698.54  97.19614
4718.44  97.19484
4738.55  97.19369
4758.37  97.19263
4778.40  97.19172
4798.38  97.19092
4818.32  97.19023
4838.46  97.18967
4858.32  97.18919
4878.37  97.18884
4898.38  97.18859
4918.35  97.18842
4938.27  97.18835
4958.38  97.18840
4978.45  97.18852
4998.24  97.18870
5018.35  97.18900
5037.99  97.18932
5058.37  97.18982
5078.00  97.19028
5098.38  97.19094
5117.99  97.19153
5138.36  97.19232
5157.97  97.19305
5178.33  97.19396
5197.93  97.19480
5218.28  97.19582
5237.87  97.19677
5258.21  97.19790
5278.55  97.19907
5298.13  97.20016
5318.45  97.20142
5338.02  97.20258
5358.34  97.20392
5377.90  97.20516
5398.21  97.20657
5417.76  97.20786
5438.06  97.20933
5458.36  97.21082
5477.89  97.21219
5498.18  97.21373
5517.71  97.21514
5537.98  97.21672
5558.25  97.21831
5577.77  97.21976
5598.03  97.22138
5618.28  97.22300
5637.78  97.22449
5658.03  97.22612
5678.27  97.22776
5697.75  97.22926
5717.99  97.23090
5738.21  97.23254
5757.68  97.23403
5777.90  97.23566
5798.11  97.23728
5817.57  97.23875
5837.77  97.24036
5857.96  97.24195
5878.15  97.24353
5897.59  97.24495
5917.77  97.24650
5937.94  97.24803
5958.11  97.24954
5977.53  97.25089
5997.69  97.25236
6017.84  97.25380
6037.99  97.25522
6057.38  97.25648
6077.52  97.25785
6097.65  97.25919
6117.78  97.26049
6137.90  97.26177
6158.02  97.26302
6177.38  97.26410
6197.49  97.26528
6217.59  97.26642
6237.68  97.26753
6257.77  97.26860
6277.85  97.26963
6297.93  97.27062
6317.26  97.27146
6337.32  97.27237
6357.38  97.27324
6377.44  97.27406
6397.49  97.27485
6417.53  97.27558
6437.57  97.27628
6457.60  97.27692
6477.63  97.27752
6497.65  97.27807
6517.67  97.27858
6537.67  97.27903
6557.68  97.27944
6577.68  97.27979
6597.67  97.28010
6617.65  97.28035
6637.63  97.28055
6657.61  97.28070
6677.57  97.28080
6697.54  97.28084
6717.49  97.28083
6737.44  97.28077
6757.39  97.28065
6777.33  97.28048
6797.26  97.28025
6817.18  97.27997
6837.11  97.27963
6857.02  97.27923
6876.93  97.27878
6897.57  97.27832
6917.46  97.27775
6937.35  97.27713
6957.23  97.27645
6977.11  97.27571
6996.98  97.27491
7016.85  97.27406
7037.44  97.27317
7057.29  97.27220
7077.14  97.27117
7096.98  97.27008
7116.81  97.26893
7137.37  97.26774
7157.19  97.26648
7177.01  97.26515
7196.81  97.26377
7217.35  97.26234
7237.14  97.26083
7256.93  97.25927
7276.71  97.25766
7297.22  97.07289
7316.99  96.98147
7336.75  96.90418
7357.24  96.67689
7376.98  96.55030
7396.73  96.46396
7417.19  96.39771
7436.92  96.34295
7456.64  96.29548
7477.09  96.25323
7496.80  96.21477
7517.23  96.00773
7536.92  95.89702
7556.61  95.84627
7577.02  95.81133
7596.70  95.78388
7617.09  95.76182
7636.75  95.74532
7657.14  95.73260
7676.78  95.72244
7697.15  95.71401
7716.78  95.70691
7737.14  95.64846
7756.76  95.64752
7777.09  95.64647
7796.70  95.64543
7817.02  95.64427
7836.61  95.64311
7856.92  95.64184
7876.50  95.64057
7896.79  95.63918
7916.36  95.63781
7936.64  95.63631
7956.91  95.63476
7976.45  95.63323
7996.70  95.63157
8016.95  95.62986
8036.47  95.62818
8056.71  95.62637
8076.93  95.62450
8096.43  95.62267
8116.64  95.62071
8136.85  95.61869
8156.32  95.61672
8176.51  95.61461
8196.69  95.61245
8216.86  95.61024
8236.31  95.60809
8256.46  95.60579
8276.61  95.60345
8296.76  95.60106
8316.17  95.59874
8336.30  95.59627
8356.41  95.59376
8376.52  95.59120
8396.63  95.58860
8416.72  95.58596
8436.09  95.58341
8456.17  95.58069
8476.24  95.57794
8496.30  95.57515
8516.35  95.57329
8536.40  95.57240
8556.44  95.57150
8576.46  95.57060
8596.49  95.56970
8616.50  95.56880
8636.50  95.56790
8656.50  95.56700
8676.49  95.56610
8696.47  95.56522
8716.44  95.56434
8736.40  95.56347
8756.36  95.56261
8776.30  95.56176
8796.24  95.56093
8816.17  95.56011
8836.09  95.55931
8856.01  95.55853
8875.91  95.55777
8896.52  95.55689
8916.41  95.55618
8936.28  95.55549
8956.15  95.55484
8976.02  95.55421
8995.87  95.55362
9016.42  95.55291
9036.26  95.55239
9056.08  95.55190
9075.90  95.55146
9095.71  95.55106
9116.22  95.55055
9136.01  95.55025
9155.79  95.54999
9176.27  95.54963
9196.04  95.54948
9215.80  95.54939
9236.25  95.54921
9255.99  95.54924
9275.72  95.54934
9296.14  95.54934
9315.85  95.54958
9336.26  95.54974
9355.95  95.55012
9375.64  95.55060
9396.02  95.55099
9415.68  95.55163
9436.04  95.55220
9455.69  95.55302
9476.03  95.55378
9495.66  95.55480
9515.98  95.55577
9535.59  95.55701
9555.89  95.55819
9575.49  95.55966
9595.77  95.56108
9616.04  95.56263
9635.61  95.56448
9655.86  95.56629
9675.41  95.56841
9695.64  95.57051
9715.86  95.57276
9735.38  95.57533
9755.58  95.57790
9775.78  95.58064
9795.96  95.58355
9815.44  95.58680
9835.61  95.59008
9855.76  95.59355
9875.91  95.59722
9895.35  95.60126
9915.47  95.60536
9935.59  95.60968
9955.69  95.61424
9975.78  95.61904
9995.87  95.62409
10015.25  95.62956
10035.31  95.63514
10055.37  95.64101
10075.41  95.64717
10095.44  95.65359
10115.46  95.66010
10135.48  95.66666
10155.48  95.67328
10175.47  95.67995
10195.45  95.68668
10215.42  95.69345
10235.38  95.70027
10255.33  95.70715
10275.27  95.71407
10295.20  95.72105
10315.11  95.72809
10335.71  95.73502
10355.60  95.74216
10375.49  95.74934
10395.36  95.75657
10415.23  95.76385
10435.08  95.77119
10455.61  95.77843
10475.44  95.78586
10495.26  95.79333
10515.07  95.80085
10535.56  95.80829
10555.34  95.81590
10575.12  95.82356
10594.89  95.83126
10615.33  95.83888
10635.07  95.84667
10655.48  95.85437
10675.21  95.86224
10694.92  95.87014
10715.30  95.87797
10734.99  95.88594
10755.34  95.89384
10775.01  95.90189
10795.34  95.90984
10814.99  95.91795
10835.30  95.92596
10854.92  95.93412
10875.21  95.94218
10894.81  95.95037
10915.07  95.95847
10935.32  95.96657
10954.89  95.97479
10975.11  95.98290
10995.33  95.99100
11014.86  95.99920
11035.05  96.00727
11055.23  96.01532
11074.73  96.02343
11094.88  96.03139
11115.03  96.03929
11135.16  96.04710
11154.61  96.05490
11174.72  96.06251
11194.81  96.06997
11214.89  96.07724
11234.96  96.08428
11255.02  96.09104
11275.07  96.09745
11295.10  96.10343
11315.12  96.10886
11335.13  96.11361
11355.13  96.11747
11375.11  96.12016
11395.09  96.12127
11415.04  96.12020
11434.99  96.11600
11454.92  96.11542
11474.85  96.11059
11494.75  96.11081
11514.65  96.10441
11534.53  96.10642
11554.41  96.09193
11574.93  96.10871
11594.77  96.08124
11614.60  96.10377
11634.42  96.12630
11654.89  96.14958
11674.68  96.17210
11694.46  96.19461
11714.89  96.21785
11734.65  96.24033
11754.39  96.26280
11774.78  96.28599
11794.49  96.30840
11814.85  96.33154
11834.54  96.35390
11854.22  96.37623
11874.53  96.39926
11894.18  96.42152
11914.48  96.44447
11934.75  96.46738
11954.36  96.48950
11974.61  96.51231
11994.20  96.53433
12014.42  96.55702
12034.63  96.57966
12054.17  96.60150
12074.35  96.62400
12094.52  96.64644
12114.67  96.66880
12134.16  96.69036
12154.28  96.71257
12174.39  96.73470
12194.49  96.75674
12214.57  96.77869
12234.64  96.80056
12254.04  96.82162
12274.08  96.84330
12294.10  96.86487
12314.11  96.88634
12334.11  96.90771
12354.09  96.92897
12374.06  96.95012
12394.01  96.97115
12413.95  96.99207
12434.51  97.01353
12454.42  97.03420
12474.32  97.05474
12494.20  97.07516
12514.06  97.09544
12533.91  97.11559
12554.38  97.13625
12574.20  97.15612
12594.01  97.17585
12613.80  97.19543
12634.21  97.21549
12653.97  97.23477
12674.36  97.25451
12694.09  97.27347
12713.80  97.29228
12734.14  97.31152
12753.82  97.33000
12774.13  97.34889
12793.78  97.36703
12814.05  97.38557
12833.68  97.40335
12853.92  97.42152
12874.15  97.43950
12893.72  97.45673
12913.92  97.47433
12934.10  97.49173
12953.63  97.50839
12973.77  97.52538
12993.90  97.54217
13014.02  97.55875
13034.11  97.57512
13053.57  97.59077
13073.63  97.60671
13093.68  97.62244
13113.71  97.63794
13133.73  97.65321
13153.73  97.66826
13173.71  97.68308
13193.68  97.69767
13213.63  97.71203
13233.57  97.72615
13253.48  97.74003
13274.01  97.75409
13293.89  97.76748
13313.76  97.78063
13333.61  97.79352
13353.44  97.80617
13373.88  97.81895
13393.68  97.83109
13413.46  97.84297
13433.85  97.85495
13453.60  97.86631
13473.33  97.87740
13493.66  97.88856
13513.36  97.89912
13533.66  97.90973
13553.32  97.91974
13573.58  97.92979
13593.82  97.93954
13613.44  97.94872
13633.64  97.95790
13653.22  97.96651
13673.39  97.97511
13693.55  97.98340
13713.68  97.99140
13733.19  97.99887
13753.29  98.00627
13773.37  98.01336
13793.43  98.02015
13813.48  98.02664
13833.51  98.03281
13853.51  98.03867
13873.50  98.04422
13893.48  98.04946
13913.43  98.05439
13933.36  98.05900
13953.28  98.06329
13973.18  98.06726
13993.05  98.07092
14013.52  98.07435
14033.36  98.07736
14053.18  98.08004
14073.58  98.08247
14093.37  98.08450
14113.13  98.08621
14133.48  98.08762
14153.21  98.08867
14173.51  98.08940
14193.20  98.08978
14213.47  98.08983
14233.12  98.08955
14253.35  98.08891
14272.96  98.08796
14293.15  98.08664
14313.32  98.08496
14332.87  98.08300
14353.00  98.08063
14373.11  98.07792
14393.20  98.07485
14413.26  98.07143
14433.31  98.06766
14453.34  98.06354
14473.34  98.05907
14493.33  98.05424
14513.29  98.04907
14533.24  98.04355
14553.16  98.03767
14573.07  98.03145
14592.95  98.02487
14612.81  98.01795
14633.24  98.01046
14653.06  98.00283
14672.86  97.99485
14693.22  97.98628
14712.98  97.97760
14732.72  97.96857
14753.01  97.95892
14772.71  97.94919
14792.96  97.93882
14812.61  97.92840
14832.82  97.91732
14853.01  97.90588
14872.60  97.89442
14892.74  97.88227
14912.86  97.86977
14932.96  97.85691
14953.04  97.84370
14972.52  97.83053
14992.56  97.81663
15012.57  97.80237
15032.55  97.78778
15052.52  97.77283
15072.46  97.75755
15092.95  97.74147
15112.85  97.72549
15132.72  97.70918
15152.58  97.69253
15172.41  97.67555
15192.78  97.65774
15212.56  97.64009
15232.89  97.62160
15252.63  97.60329
15272.90  97.58413
15292.59  97.56517
15312.82  97.54534
15332.47  97.52575
15352.65  97.50527
15372.81  97.48447
15392.39  97.46394
15412.50  97.44250
15432.58  97.42075
15452.64  97.39869
15472.68  97.37631
15492.69  97.35363
15512.68  97.33065
15532.65  97.30737
15552.58  97.28379
15572.50  97.25992
15592.39  97.23577
15612.25  97.21133
15632.65  97.18591
15652.46  97.16091
15672.25  97.13563
15692.57  97.10937
15712.31  97.08355
15732.57  97.05674
15752.26  97.03040
15772.47  97.00306
15792.11  96.97621
15812.27  96.94836
15832.40  96.92026
15852.51  96.89192
15872.05  96.86411
15892.10  96.83529
15912.13  96.80624
15932.13  96.77696
15952.11  96.74746
15972.05  96.71775
15991.98  96.68782
16012.41  96.67196
16032.28  96.72108
16052.12  96.72015
16071.93  96.71917
16092.25  96.71823
16112.01  96.71716
16132.28  96.71611
16151.98  96.71493
16172.19  96.71378
16192.37  96.71257
16211.99  96.71123
16232.12  96.70991
16252.21  96.75854
16272.28  96.75710
16292.32  96.75562
16311.80  96.75400
16331.79  96.75240
16352.27  96.75081
16372.19  96.74909
16392.08  96.74731
16411.95  96.74548
16431.79  96.74359
16452.12  96.74170
16471.90  96.73969
16492.17  96.78769
16511.89  96.78556
16532.09  96.78343
16551.76  96.78119
16571.90  96.77894
16592.02  96.77663
16612.11  96.77426
16631.65  96.77178
16651.68  96.76928
16671.14  96.76668
16692.98  96.76424
16712.08  96.81149
16731.19  96.80868
16753.02  96.80604
16772.13  96.80312
16791.23  96.80015
16813.06  96.79732
16832.16  96.79423
16851.26  96.79108
16873.09  96.78805
16892.19  96.78479
16911.28  96.78147
16930.38  96.77810
16952.20  96.82482
16971.29  96.82133
16990.39  96.81778
17012.20  96.81431
17031.29  96.81064
17050.38  96.80693
17072.20  96.80325
17091.29  96.79942
17110.37  96.79553
17132.18  96.79167
17151.27  96.78767
17170.35  96.78361
17192.16  96.77955
17211.24  96.77538
17230.32  96.77115
17252.12  96.76690
17271.20  96.76256
17290.27  96.75817
17312.08  96.75373
17331.15  96.74923
17350.22  96.74467
17372.02  96.74004
17391.09  96.73538
17410.16  96.73066
17431.95  96.72585
17451.02  96.72102
17470.09  96.71615
17491.88  96.71116
17510.94  96.70618
17532.73  96.70107
17551.79  96.69598
17570.85  96.69085
17592.63  96.68557
17611.69  96.68033
17630.75  96.67505
17652.53  96.66961
17671.58  96.66423
17690.64  96.65881
17712.41  96.65320
17731.46  96.64768
17750.52  96.64212
17772.29  96.63636
17791.34  96.63071
17810.38  96.62502
17832.15  96.61911
17851.20  96.61333
17870.24  96.60752
17892.00  96.60147
17911.05  96.59558
17930.09  96.58965
17951.85  96.58346
17970.89  96.57746
17989.92  96.57142
18011.68  96.56512
18030.72  96.55901
18049.75  96.55287
18071.50  96.54645
18090.53  96.54025
18112.28  96.53376
18131.31  96.52750
18150.34  96.52122
18172.09  96.51464
18191.11  96.50830
18210.14  96.50194
18231.88  96.49527
18250.90  96.48887
18269.92  96.48245
18291.66  96.47571
18310.68  96.46925
18329.70  96.46278
18351.43  96.45598
18370.45  96.44948
18392.18  96.44266
18411.20  96.43613
18430.21  96.42960
18451.93  96.42274
18470.94  96.41619
18489.95  96.40965
18511.68  96.40277
18530.68  96.39622
18549.69  96.38966
18571.41  96.38279
18590.41  96.37624
18612.13  96.36937
18631.13  96.36284
18650.13  96.35632
18671.84  96.34947
18690.84  96.34297
18709.84  96.33649
18731.54  96.32970
18750.54  96.32325
18769.53  96.31682
18791.24  96.31009
18810.23  96.30371
18831.93  96.29704
18850.92  96.29072
18869.90  96.28443
18891.60  96.27786
18910.58  96.27163
18929.57  96.26545
18951.26  96.25900
18970.24  96.25290
18989.22  96.24684
19010.91  96.24054
19029.89  96.23458
19051.58  96.22839
19070.55  96.22254
19089.52  96.21674
19111.21  96.21074
19130.18  96.20506
19149.15  96.19945
19170.83  96.19366
19189.79  96.18819
19211.47  96.18256
19230.43  96.17724
19249.40  96.17199
19271.07  96.16662
19290.03  96.16154
19311.70  96.15637
19330.66  96.15146
19349.62  96.14665
19371.28  96.14179
19390.24  96.13717
19409.19  96.13265
19430.85  96.12813
19449.81  96.12382
19471.46  96.11955
19490.41  96.11548
19509.36  96.11152
19531.01  96.10763
19549.96  96.10392
19568.90  96.10034
19590.55  96.09688
19609.50  96.09356
19631.14  96.09042
19650.08  96.08739
19669.02  96.08449
19690.66  96.08184
19709.60  96.07925
19731.24  96.07695
19750.17  96.07468
19769.10  96.07258
19790.74  96.07082
19809.67  96.06906
19831.30  96.06770
19850.23  96.06630
19869.15  96.06508
19890.78  96.06434
19909.70  96.06350
19931.33  96.06320
19950.25  96.06276
19969.17  96.06252
19990.79  96.06291
19998.90  96.06275