File: src/etc/data/comp/optics/CaF2_glass.dat
# Wavelength (nm)	% Transmission
# Transmission for uncoated CaF2 (Calcium Fluoride) glass
# From: ThorLabs Excel spreadsheet linked from https://www.thorlabs.com/NewGroupPage9.cfm?ObjectGroup_ID=3978
200	0.903151
202	0.905287
204	0.9065069
206	0.907446
208	0.907741
210	0.908447
212	0.906753
214	0.905236
216	0.904685
218	0.904453
220	0.905066
222	0.906848
224	0.9085633
226	0.910143
228	0.91126
230	0.912456
232	0.914772
234	0.915912
236	0.917256
238	0.917991
240	0.919306
242	0.920152
244	0.920792
246	0.921755
248	0.922774
250	0.923627
252	0.924288
254	0.924958
256	0.925936
258	0.926388
260	0.926623
262	0.926964
264	0.92748
266	0.927585
268	0.927847
270	0.928501
272	0.928498
274	0.9285379
276	0.929048
278	0.929007
280	0.929063
282	0.929504
284	0.929882
286	0.929571
288	0.930016
290	0.92987
292	0.9301323
294	0.930068
296	0.929671
298	0.929107
300	0.9281887
302	0.927062
304	0.925892
306	0.9254149
308	0.92558
310	0.926955
312	0.92854
314	0.92994
316	0.930815
318	0.931466
320	0.931399
322	0.930852
324	0.93058
326	0.930548
328	0.9290929
330	0.927776
332	0.9268489
334	0.925077
336	0.923867
338	0.924249
340	0.924095
342	0.925642
344	0.926518
346	0.92684
348	0.927014
350	0.927258
352	0.926585
354	0.927194
356	0.926925
358	0.927284
360	0.928479
362	0.928418
364	0.928229
366	0.928747
368	0.928779
370	0.9285935
372	0.929397
374	0.929329
376	0.929469
378	0.929713
380	0.929875
382	0.929912
384	0.930754
386	0.93059
388	0.930924
390	0.931469
392	0.931607
394	0.932005
396	0.932189
398	0.931971
400	0.932338
402	0.932139
404	0.932442
406	0.932594
408	0.93343
410	0.933503
412	0.933985
414	0.934296
416	0.934212
418	0.934601
420	0.934661
422	0.934968
424	0.935232
426	0.935002
428	0.9351226
430	0.935142
432	0.935302
434	0.934981
436	0.935327
438	0.935334
440	0.935541
442	0.935297
444	0.935324
446	0.935199
448	0.9353832
450	0.935232
452	0.935365
454	0.935459
456	0.935604
458	0.9354874
460	0.935567
462	0.935906
464	0.935558
466	0.935629
468	0.935747
470	0.935542
472	0.935807
474	0.936006
476	0.935578
478	0.93571
480	0.9359661
482	0.935701
484	0.935752
486	0.936131
488	0.935463
490	0.93568
492	0.9360412
494	0.935542
496	0.935699
498	0.936105
500	0.935663
502	0.935999
504	0.9363545
506	0.936006
508	0.936023
510	0.936228
512	0.935685
514	0.936036
516	0.936395
518	0.93598
520	0.936326
522	0.936282
524	0.936031
526	0.936163
528	0.93647
530	0.935973
532	0.936408
534	0.9366034
536	0.936224
538	0.936319
540	0.9365614
542	0.9359829
544	0.936564
546	0.9365432
548	0.935812
550	0.936579
552	0.936874
554	0.9363352
556	0.936416
558	0.937339
560	0.93625
562	0.936743
564	0.936173
566	0.937104
568	0.937106
570	0.936814
572	0.936777
574	0.936796
576	0.9370381
578	0.937048
580	0.936939
582	0.936877
584	0.9372886
586	0.936772
588	0.936757
590	0.937236
592	0.936879
594	0.936947
596	0.9373441
598	0.9368229
600	0.937112
602	0.937199
604	0.937014
606	0.936707
608	0.937426
610	0.937044
612	0.937024
614	0.937665
616	0.936942
618	0.937328
620	0.937832
622	0.937046
624	0.937299
626	0.937553
628	0.937185
630	0.93744
632	0.937687
634	0.937166
636	0.937078
638	0.937745
640	0.937047
642	0.937472
644	0.937746
646	0.936922
648	0.937064
650	0.937623
652	0.937076
654	0.937211
656	0.937507
658	0.937126
660	0.937235
662	0.937634
664	0.937333
666	0.937468
668	0.937985
670	0.937452
672	0.937588
674	0.938021
676	0.937468
678	0.937712
680	0.9380544
682	0.937472
684	0.937602
686	0.938077
688	0.937539
690	0.937674
692	0.937941
694	0.9378232
696	0.937639
698	0.937603
700	0.937713
702	0.937593
704	0.937403
706	0.937935
708	0.937539
710	0.937635
712	0.937804
714	0.938006
716	0.937974
718	0.937846
720	0.937707
722	0.9377405
724	0.9380244
726	0.93775
728	0.937629
730	0.938091
732	0.937676
734	0.937736
736	0.93792
738	0.9377884
740	0.9377095
742	0.937931
744	0.93759
746	0.937984
748	0.938152
750	0.937939
752	0.938091
754	0.9380546
756	0.937937
758	0.938443
760	0.938132
762	0.937977
764	0.938367
766	0.938308
768	0.9381
770	0.938393
772	0.938278
774	0.938191
776	0.93874
778	0.9382984
780	0.93828
782	0.938731
784	0.938081
786	0.938444
788	0.938657
790	0.938189
792	0.938171
794	0.938744
796	0.938247
798	0.938387
800	0.938929
802	0.93833
804	0.938453
806	0.938775
808	0.938421
810	0.938497
812	0.93847
814	0.938665
816	0.9383996
818	0.938537
820	0.938359
822	0.9385407
824	0.938602
826	0.939107
828	0.9384276
830	0.93823
832	0.938628
834	0.938567
836	0.9387484
838	0.938585
840	0.938582
842	0.93849
844	0.938321
846	0.938249
848	0.938373
850	0.938975
852	0.938509
854	0.938831
856	0.939016
858	0.938916
860	0.939197
862	0.939567
864	0.939573
866	0.940019
868	0.9395108
870	0.939566
872	0.9398332
874	0.939521
876	0.939413
878	0.939802
880	0.939626
882	0.93966
884	0.939842
886	0.939648
888	0.939613
890	0.939886
892	0.9398624
894	0.9397623
896	0.940242
898	0.939571
900	0.939736
902	0.939349
904	0.939851
906	0.939799
908	0.939948
910	0.939517
912	0.939738
914	0.939541
916	0.939359
918	0.939588
920	0.9401067
922	0.939468
924	0.939722
926	0.939725
928	0.939806
930	0.939821
932	0.939844
934	0.939824
936	0.939573
938	0.93967
940	0.939619
942	0.939937
944	0.939839
946	0.939638
948	0.9402476
950	0.940024
952	0.940159
954	0.939826
956	0.939881
958	0.9398574
960	0.9394981
962	0.940024
964	0.939715
966	0.939565
968	0.940058
970	0.939829
972	0.939467
974	0.939581
976	0.939733
978	0.939508
980	0.939543
982	0.939553
984	0.939935
986	0.93965
988	0.939824
990	0.939686
992	0.939941
994	0.939862
996	0.940079
998	0.939751
1000	0.938621
1002	0.938646
1004	0.938671
1006	0.938696
1008	0.93872
1010	0.938745
1012	0.938769
1014	0.938793
1016	0.938817
1018	0.93884
1020	0.938864
1022	0.938887
1024	0.93891
1026	0.938933
1028	0.938956
1030	0.938979
1032	0.939001
1034	0.939024
1036	0.939046
1038	0.939068
1040	0.93909
1042	0.939112
1044	0.939133
1046	0.939155
1048	0.939176
1050	0.939197
1052	0.939218
1054	0.939239
1056	0.93926
1058	0.93928
1060	0.939301
1062	0.939321
1064	0.939341
1066	0.939361
1068	0.939381
1070	0.939401
1072	0.93942
1074	0.93944
1076	0.939459
1078	0.939478
1080	0.939497
1082	0.939516
1084	0.939535
1086	0.939553
1088	0.939572
1090	0.93959
1092	0.939608
1094	0.939626
1096	0.939644
1098	0.939662
1100	0.939679
1102	0.939697
1104	0.939714
1106	0.939731
1108	0.939748
1110	0.939765
1112	0.939782
1114	0.939799
1116	0.939815
1118	0.939832
1120	0.939848
1122	0.939864
1124	0.93988
1126	0.939896
1128	0.939912
1130	0.939927
1132	0.939943
1134	0.939958
1136	0.939974
1138	0.939989
1140	0.940004
1142	0.940019
1144	0.940033
1146	0.940048
1148	0.940063
1150	0.940077
1152	0.940091
1154	0.940106
1156	0.94012
1158	0.940134
1160	0.940147
1162	0.940161
1164	0.940175
1166	0.940188
1168	0.940202
1170	0.940215
1172	0.940228
1174	0.940241
1176	0.940254
1178	0.940267
1180	0.940279
1182	0.940292
1184	0.940304
1186	0.940317
1188	0.940329
1190	0.940341
1192	0.940353
1194	0.940365
1196	0.940377
1198	0.940389
1200	0.9404
1202	0.940412
1204	0.940423
1206	0.940434
1208	0.940446
1210	0.940457
1212	0.940468
1214	0.940478
1216	0.940489
1218	0.9405
1220	0.94051
1222	0.940521
1224	0.940531
1226	0.940541
1228	0.940552
1230	0.940562
1232	0.940572
1234	0.940582
1236	0.940591
1238	0.940601
1240	0.940611
1242	0.94062
1244	0.940629
1246	0.940639
1248	0.940648
1250	0.940657
1252	0.940666
1254	0.940675
1256	0.940684
1258	0.940693
1260	0.940701
1262	0.94071
1264	0.940718
1266	0.940727
1268	0.940735
1270	0.940743
1272	0.940751
1274	0.940759
1276	0.940767
1278	0.940775
1280	0.940783
1282	0.940791
1284	0.940798
1286	0.940806
1288	0.940813
1290	0.94082
1292	0.940828
1294	0.940835
1296	0.940842
1298	0.940849
1300	0.940856
1302	0.940863
1304	0.94087
1306	0.940876
1308	0.940883
1310	0.940889
1312	0.940896
1314	0.940902
1316	0.940909
1318	0.940915
1320	0.940921
1322	0.940927
1324	0.940933
1326	0.940939
1328	0.940945
1330	0.940951
1332	0.940956
1334	0.940962
1336	0.940967
1338	0.940973
1340	0.940978
1342	0.940984
1344	0.940989
1346	0.940994
1348	0.940999
1350	0.941004
1352	0.941009
1354	0.941014
1356	0.941019
1358	0.941024
1360	0.941029
1362	0.941033
1364	0.941038
1366	0.941042
1368	0.941047
1370	0.941051
1372	0.941055
1374	0.94106
1376	0.941064
1378	0.941068
1380	0.941072
1382	0.941076
1384	0.94108
1386	0.941084
1388	0.941088
1390	0.941091
1392	0.941095
1394	0.941099
1396	0.941102
1398	0.941106
1400	0.941109
1402	0.941113
1404	0.941116
1406	0.941119
1408	0.941123
1410	0.941126
1412	0.941129
1414	0.941132
1416	0.941135
1418	0.941138
1420	0.941141
1422	0.941144
1424	0.941146
1426	0.941149
1428	0.941152
1430	0.941154
1432	0.941157
1434	0.941159
1436	0.941162
1438	0.941164
1440	0.941167
1442	0.941169
1444	0.941171
1446	0.941173
1448	0.941175
1450	0.941178
1452	0.94118
1454	0.941182
1456	0.941184
1458	0.941186
1460	0.941187
1462	0.941189
1464	0.941191
1466	0.941193
1468	0.941194
1470	0.941196
1472	0.941198
1474	0.941199
1476	0.941201
1478	0.941202
1480	0.941203
1482	0.941205
1484	0.941206
1486	0.941207
1488	0.941209
1490	0.94121
1492	0.941211
1494	0.941212
1496	0.941213
1498	0.941214
1500	0.941215
1502	0.941216
1504	0.941217
1506	0.941218
1508	0.941219
1510	0.94122
1512	0.94122
1514	0.941221
1516	0.941222
1518	0.941222
1520	0.941223
1522	0.941224
1524	0.941224
1526	0.941225
1528	0.941225
1530	0.941226
1532	0.941226
1534	0.941226
1536	0.941227
1538	0.941227
1540	0.941227
1542	0.941227
1544	0.941228
1546	0.941228
1548	0.941228
1550	0.941228
1552	0.941228
1554	0.941228
1556	0.941228
1558	0.941228
1560	0.941228
1562	0.941228
1564	0.941228
1566	0.941228
1568	0.941228
1570	0.941227
1572	0.941227
1574	0.941227
1576	0.941227
1578	0.941226
1580	0.941226
1582	0.941226
1584	0.941225
1586	0.941225
1588	0.941224
1590	0.941224
1592	0.941223
1594	0.941223
1596	0.941222
1598	0.941222
1600	0.941221
1602	0.941221
1604	0.94122
1606	0.941219
1608	0.941219
1610	0.941218
1612	0.941217
1614	0.941217
1616	0.941216
1618	0.941215
1620	0.941214
1622	0.941213
1624	0.941213
1626	0.941212
1628	0.941211
1630	0.94121
1632	0.941209
1634	0.941208
1636	0.941207
1638	0.941206
1640	0.941205
1642	0.941204
1644	0.941203
1646	0.941202
1648	0.941201
1650	0.9412
1652	0.941199
1654	0.941198
1656	0.941196
1658	0.941195
1660	0.941194
1662	0.941193
1664	0.941192
1666	0.941191
1668	0.941189
1670	0.941188
1672	0.941187
1674	0.941186
1676	0.941184
1678	0.941183
1680	0.941182
1682	0.94118
1684	0.941179
1686	0.941178
1688	0.941176
1690	0.941175
1692	0.941174
1694	0.941172
1696	0.941171
1698	0.941169
1700	0.941168
1702	0.941167
1704	0.941165
1706	0.941164
1708	0.941162
1710	0.941161
1712	0.941159
1714	0.941158
1716	0.941156
1718	0.941155
1720	0.941153
1722	0.941152
1724	0.94115
1726	0.941149
1728	0.941147
1730	0.941146
1732	0.941144
1734	0.941143
1736	0.941141
1738	0.94114
1740	0.941138
1742	0.941137
1744	0.941135
1746	0.941133
1748	0.941132
1750	0.94113
1752	0.941129
1754	0.941127
1756	0.941126
1758	0.941124
1760	0.941122
1762	0.941121
1764	0.941119
1766	0.941118
1768	0.941116
1770	0.941114
1772	0.941113
1774	0.941111
1776	0.941109
1778	0.941108
1780	0.941106
1782	0.941105
1784	0.941103
1786	0.941101
1788	0.9411
1790	0.941098
1792	0.941097
1794	0.941095
1796	0.941093
1798	0.941092
1800	0.94109
1802	0.941089
1804	0.941087
1806	0.941085
1808	0.941084
1810	0.941082
1812	0.941081
1814	0.941079
1816	0.941077
1818	0.941076
1820	0.941074
1822	0.941073
1824	0.941071
1826	0.941069
1828	0.941068
1830	0.941066
1832	0.941065
1834	0.941063
1836	0.941062
1838	0.94106
1840	0.941059
1842	0.941057
1844	0.941056
1846	0.941054
1848	0.941053
1850	0.941051
1852	0.94105
1854	0.941048
1856	0.941047
1858	0.941045
1860	0.941044
1862	0.941042
1864	0.941041
1866	0.941039
1868	0.941038
1870	0.941036
1872	0.941035
1874	0.941034
1876	0.941032
1878	0.941031
1880	0.941029
1882	0.941028
1884	0.941027
1886	0.941025
1888	0.941024
1890	0.941023
1892	0.941021
1894	0.94102
1896	0.941019
1898	0.941017
1900	0.941016
1902	0.941015
1904	0.941014
1906	0.941012
1908	0.941011
1910	0.94101
1912	0.941009
1914	0.941007
1916	0.941006
1918	0.941005
1920	0.941004
1922	0.941003
1924	0.941002
1926	0.941
1928	0.940999
1930	0.940998
1932	0.940997
1934	0.940996
1936	0.940995
1938	0.940994
1940	0.940993
1942	0.940992
1944	0.940991
1946	0.94099
1948	0.940989
1950	0.940988
1952	0.940987
1954	0.940986
1956	0.940985
1958	0.940984
1960	0.940983
1962	0.940983
1964	0.940982
1966	0.940981
1968	0.94098
1970	0.940979
1972	0.940978
1974	0.940978
1976	0.940977
1978	0.940976
1980	0.940975
1982	0.940975
1984	0.940974
1986	0.940973
1988	0.940973
1990	0.940972
1992	0.940972
1994	0.940971
1996	0.94097
1998	0.94097
2000	0.940969
2002	0.940969
2004	0.940968
2006	0.940968
2008	0.940967
2010	0.940967
2012	0.940966
2014	0.940966
2016	0.940966
2018	0.940965
2020	0.940965
2022	0.940965
2024	0.940964
2026	0.940964
2028	0.940964
2030	0.940963
2032	0.940963
2034	0.940963
2036	0.940963
2038	0.940963
2040	0.940963
2042	0.940962
2044	0.940962
2046	0.940962
2048	0.940962
2050	0.940962
2052	0.940962
2054	0.940962
2056	0.940962
2058	0.940962
2060	0.940962
2062	0.940962
2064	0.940962
2066	0.940963
2068	0.940963
2070	0.940963
2072	0.940963
2074	0.940963
2076	0.940964
2078	0.940964
2080	0.940964
2082	0.940965
2084	0.940965
2086	0.940965
2088	0.940966
2090	0.940966
2092	0.940966
2094	0.940967
2096	0.940967
2098	0.940968
2100	0.940968
2102	0.940969
2104	0.94097
2106	0.94097
2108	0.940971
2110	0.940971
2112	0.940972
2114	0.940973
2116	0.940974
2118	0.940974
2120	0.940975
2122	0.940976
2124	0.940977
2126	0.940978
2128	0.940978
2130	0.940979
2132	0.94098
2134	0.940981
2136	0.940982
2138	0.940983
2140	0.940984
2142	0.940985
2144	0.940986
2146	0.940988
2148	0.940989
2150	0.94099
2152	0.940991
2154	0.940992
2156	0.940994
2158	0.940995
2160	0.940996
2162	0.940997
2164	0.940999
2166	0.941
2168	0.941002
2170	0.941003
2172	0.941004
2174	0.941006
2176	0.941007
2178	0.941009
2180	0.941011
2182	0.941012
2184	0.941014
2186	0.941015
2188	0.941017
2190	0.941019
2192	0.941021
2194	0.941022
2196	0.941024
2198	0.941026
2200	0.941028
2202	0.94103
2204	0.941032
2206	0.941034
2208	0.941036
2210	0.941038
2212	0.94104
2214	0.941042
2216	0.941044
2218	0.941046
2220	0.941048
2222	0.94105
2224	0.941052
2226	0.941055
2228	0.941057
2230	0.941059
2232	0.941061
2234	0.941064
2236	0.941066
2238	0.941068
2240	0.941071
2242	0.941073
2244	0.941076
2246	0.941078
2248	0.941081
2250	0.941083
2252	0.941086
2254	0.941089
2256	0.941091
2258	0.941094
2260	0.941097
2262	0.9411
2264	0.941102
2266	0.941105
2268	0.941108
2270	0.941111
2272	0.941114
2274	0.941117
2276	0.94112
2278	0.941123
2280	0.941126
2282	0.941129
2284	0.941132
2286	0.941135
2288	0.941138
2290	0.941141
2292	0.941145
2294	0.941148
2296	0.941151
2298	0.941154
2300	0.941158
2302	0.941161
2304	0.941165
2306	0.941168
2308	0.941172
2310	0.941175
2312	0.941179
2314	0.941182
2316	0.941186
2318	0.941189
2320	0.941193
2322	0.941197
2324	0.9412
2326	0.941204
2328	0.941208
2330	0.941212
2332	0.941216
2334	0.941219
2336	0.941223
2338	0.941227
2340	0.941231
2342	0.941235
2344	0.941239
2346	0.941243
2348	0.941247
2350	0.941252
2352	0.941256
2354	0.94126
2356	0.941264
2358	0.941268
2360	0.941273
2362	0.941277
2364	0.941281
2366	0.941286
2368	0.94129
2370	0.941295
2372	0.941299
2374	0.941304
2376	0.941308
2378	0.941313
2380	0.941317
2382	0.941322
2384	0.941327
2386	0.941331
2388	0.941336
2390	0.941341
2392	0.941346
2394	0.941351
2396	0.941356
2398	0.94136
2400	0.941365
2402	0.94137
2404	0.941375
2406	0.94138
2408	0.941385
2410	0.941391
2412	0.941396
2414	0.941401
2416	0.941406
2418	0.941411
2420	0.941417
2422	0.941422
2424	0.941427
2426	0.941433
2428	0.941438
2430	0.941443
2432	0.941449
2434	0.941454
2436	0.94146
2438	0.941465
2440	0.941471
2442	0.941477
2444	0.941482
2446	0.941488
2448	0.941494
2450	0.9415
2452	0.941505
2454	0.941511
2456	0.941517
2458	0.941523
2460	0.941529
2462	0.941535
2464	0.941541
2466	0.941547
2468	0.941553
2470	0.941559
2472	0.941565
2474	0.941571
2476	0.941577
2478	0.941584
2480	0.94159
2482	0.941596
2484	0.941603
2486	0.941609
2488	0.941615
2490	0.941622
2492	0.941628
2494	0.941635
2496	0.941641
2498	0.941648
2500	0.941654
2502	0.941661
2504	0.941668
2506	0.941674
2508	0.941681
2510	0.941688
2512	0.941695
2514	0.941701
2516	0.941708
2518	0.941715
2520	0.941722
2522	0.941729
2524	0.941736
2526	0.941743
2528	0.94175
2530	0.941757
2532	0.941764
2534	0.941771
2536	0.941779
2538	0.941786
2540	0.941793
2542	0.9418
2544	0.941808
2546	0.941815
2548	0.941822
2550	0.94183
2552	0.941837
2554	0.941845
2556	0.941852
2558	0.94186
2560	0.941867
2562	0.941875
2564	0.941883
2566	0.94189
2568	0.941898
2570	0.941906
2572	0.941914
2574	0.941921
2576	0.941929
2578	0.941937
2580	0.941945
2582	0.941953
2584	0.941961
2586	0.941969
2588	0.941977
2590	0.941985
2592	0.941993
2594	0.942001
2596	0.942009
2598	0.942018
2600	0.942026