File: src/etc/data/comp/optics/GG495.csv
# 495 nm Longpass Colored Glass Filter (GG495)
# Data from Item # FGL495, FGL495S & FGL495M at ThorLabs
# Measurements Made at Normal Incidence
Wavelength [nm],Transmission [%]
200,0.004609
205,0.004537
210,0.002461
215,0.002846
220,0.002192
225,0.003257
230,0.004628
235,0.002826
240,0.002173
245,0.002599
250,0.003727
255,0.002228
260,0.002644
265,0.001429
270,0.001946
275,0.002775
280,0.002884
285,0.001444
290,0.000517
295,0.001863
300,0.00197
305,0.002596
310,0.002807
315,0.003222
320,0.004977
325,0.001972
330,0.002285
335,0.004677
340,0.003745
345,0.003954
350,0.003537
355,0.002914
360,-0.000416
365,0.000729
370,0.001874
375,0.002605
380,0.001353
385,0.002706
390,0.003121
395,0.001248
400,0.003224
405,0.004575
410,0.003742
415,0.002494
420,0.002182
425,0.001973
430,0.001142
435,0.002905
440,0.000726
445,0.003008
450,0.004977
455,0.00425
460,0.008085
465,0.022175
470,0.085245
475,0.513423
480,3.4745
485,15.216
490,38.1671
495,61.7308
500,76.4306
505,83.5688
510,86.7711
515,88.2564
520,88.9989
525,89.4651
530,89.7829
535,90.04258
540,90.3329
545,90.56795
550,90.683
555,90.7542
560,90.7961
565,90.8447
570,90.8527
575,90.891
580,90.9426
585,90.9526
590,90.9653
595,90.9822
600,91.0029
605,90.9818
610,90.927
615,90.9077
620,90.9012
625,90.9126
630,90.9162
635,90.88233
640,90.8425
645,90.82
650,90.7858
655,90.7568
660,90.7264
665,90.7065
670,90.685
675,90.6701
680,90.6927
685,90.70978
690,90.6815
695,90.6558
700,90.6214
705,90.6012
710,90.5651
715,90.52621
720,90.4896
725,90.4628
730,90.4149
735,90.3672
740,90.3249
745,90.2821
750,90.2385
755,90.2004
760,90.1512
765,90.12
770,90.0724
775,90.0225
780,90.002
785,89.9558
790,89.8987
795,89.8792
800,89.8621
805,89.817
810,89.7908
815,89.7458
820,89.7078
825,89.7143
830,89.7262
835,89.7411
840,89.7136
845,89.6231
850,89.59257
855,89.5167
860,89.3929
865,89.3794
870,89.3701
875,89.3081
880,89.2652
885,89.2458
890,89.1917
895,89.1723
900,89.1507
905,89.1053
910,89.0867
915,89.0588
920,89.0358
925,89.0204
930,88.9874
935,88.9604
940,88.9444
945,88.9393
950,88.9217
955,88.8932
960,88.871
965,88.8583
970,88.8539
975,88.8311
980,88.8044
985,88.7841
990,88.7756
995,88.7598
1000,88.7604
1005,88.7671
1010,88.7506
1015,88.7456
1020,88.7277
1025,88.7222
1030,88.7196
1035,88.6904
1040,88.6806
1045,88.704
1050,88.6952
1055,88.68793
1060,88.6939
1065,88.6963
1070,88.7028
1075,88.6935
1080,88.6896
1085,88.6698
1090,88.6757
1095,88.7017
1100,88.6927
1105,88.6829
1110,88.67147
1115,88.6774
1120,88.71507
1125,88.7059
1130,88.7034
1135,88.7196
1140,88.7039
1145,88.7026
1150,88.7111
1155,88.7206
1160,88.729
1165,88.7335
1170,88.7389
1175,88.746
1180,88.74821
1185,88.7289
1190,88.7383
1195,88.7543
1200,88.7644
1205,88.766
1210,88.7719
1215,88.7709
1220,88.7761
1225,88.7939
1230,88.8114
1235,88.8186
1240,88.8263
1245,88.8397
1250,88.8697
1255,88.8808
1260,88.8757
1265,88.8839
1270,88.8795
1275,88.8891
1280,88.9193
1285,88.9578
1290,88.9588
1295,88.9678
1300,88.9723
1305,88.9759
1310,88.9988
1315,89.0114
1320,89.0451
1325,89.0659
1330,89.0773
1335,89.063
1340,89.0834
1345,89.0992
1350,89.1164
1355,89.1498
1360,89.1424
1365,89.1553
1370,89.1997
1375,89.2329
1380,89.23626
1385,89.2492
1390,89.1962
1395,89.1711
1400,89.1598
1405,89.15
1410,89.178
1415,89.2068
1420,89.2317
1425,89.2759
1430,89.3237
1435,89.3532
1440,89.4136
1445,89.486
1450,89.5063
1455,89.5085
1460,89.5291
1465,89.5629
1470,89.5884
1475,89.6358
1480,89.6643
1485,89.6879
1490,89.7042
1495,89.732
1500,89.7708
1505,89.7537
1510,89.7648
1515,89.8161
1520,89.8643
1525,89.86
1530,89.888
1535,89.8788
1540,89.85913
1545,89.8516
1550,89.8695
1555,89.8846
1560,89.9594
1565,90.072
1570,90.1635
1575,90.2204
1580,90.251
1585,90.26335
1590,90.27745
1595,90.285
1600,90.33041
1605,90.3339
1610,90.34561
1615,90.32286
1620,90.3461
1625,90.3368
1630,90.3658
1635,90.36675
1640,90.38334
1645,90.3949
1650,90.4024
1655,90.3994
1660,90.408
1665,90.4113
1670,90.4084
1675,90.4564
1680,90.4474
1685,90.4044
1690,90.43331
1695,90.4437
1700,90.4304
1705,90.4221
1710,90.4074
1715,90.42282
1720,90.4172
1725,90.4386
1730,90.4128
1735,90.3919
1740,90.3967
1745,90.4195
1750,90.3711
1755,90.365
1760,90.3495
1765,90.3498
1770,90.3571
1775,90.3828
1780,90.3524
1785,90.3745
1790,90.2925
1795,90.3039
1800,90.3175