File: src/etc/data/comp/optics/UVFusedSilica.dat
#Wavelength (nm)	%Transmission
# Transmission for uncoated UV fused silica
# From: ThorLabs Excel spreadsheet linked from https://www.thorlabs.com/NewGroupPage9.cfm?ObjectGroup_ID=3983
200	0.8742839
204	0.8863473
208	0.8952925
212	0.9001561
216	0.9030229
220	0.9041387
224	0.9048172
228	0.9057682
232	0.9072859
236	0.9096413
240	0.9128686
244	0.9157248
248	0.9177577
252	0.9198394
256	0.9207748
260	0.9209136
264	0.9220548
268	0.9228366
272	0.9229323
276	0.9239217
280	0.9245639
284	0.9248933
288	0.9252064
292	0.9255044
296	0.9257882
300	0.9260588
304	0.926317
308	0.9265636
312	0.9267994
316	0.9270249
320	0.9272408
324	0.9274476
328	0.9276459
332	0.9278362
336	0.9280188
340	0.9281943
344	0.928363
348	0.9285252
352	0.9286814
356	0.9288318
360	0.9289767
364	0.9291163
368	0.9292511
372	0.9293811
376	0.9295067
380	0.929628
384	0.9297452
388	0.9298585
392	0.9299682
396	0.9300743
400	0.9301771
404	0.9302766
408	0.9303731
412	0.9304666
416	0.9305573
420	0.9306452
424	0.9307306
428	0.9308136
432	0.9308941
436	0.9309724
440	0.9310484
444	0.9311224
448	0.9311943
452	0.9312643
456	0.9313324
460	0.9313988
464	0.9314634
468	0.9315263
472	0.9315876
476	0.9316474
480	0.9317057
484	0.9317626
488	0.9318181
492	0.9318722
496	0.9319251
500	0.9319767
504	0.9320271
508	0.9320764
512	0.9321246
516	0.9321716
520	0.9322176
524	0.9322627
528	0.9323067
532	0.9323498
536	0.932392
540	0.9324333
544	0.9324737
548	0.9325133
552	0.9325521
556	0.9325901
560	0.9326274
564	0.9326639
568	0.9326998
572	0.9327349
576	0.9327694
580	0.9328032
584	0.9328364
588	0.932869
592	0.932901
596	0.9329325
600	0.9329633
604	0.9329937
608	0.9330235
612	0.9330528
616	0.9330816
620	0.9331099
624	0.9331378
628	0.9331652
632	0.9331921
636	0.9332187
640	0.9332448
644	0.9332705
648	0.9332958
652	0.9333207
656	0.9333452
660	0.9333694
664	0.9333933
668	0.9334167
672	0.9334399
676	0.9334627
680	0.9334852
684	0.9335074
688	0.9335293
692	0.9335509
696	0.9335722
700	0.9335932
704	0.9336139
708	0.9336344
712	0.9336546
716	0.9336746
720	0.9336943
724	0.9337138
728	0.9337331
732	0.9337521
736	0.9337709
740	0.9337895
744	0.9338079
748	0.933826
752	0.933844
756	0.9338618
760	0.9338793
764	0.9338967
768	0.9339139
772	0.933931
776	0.9339478
780	0.9339645
784	0.933981
788	0.9339974
792	0.9340136
796	0.9340296
800	0.9340455
804	0.9340612
808	0.9340769
812	0.9340923
816	0.9341076
820	0.9341228
824	0.9341379
828	0.9341528
832	0.9341676
836	0.9341823
840	0.9341969
844	0.9342114
848	0.9342257
852	0.9342399
856	0.9342541
860	0.9342681
864	0.934282
868	0.9342958
872	0.9343095
876	0.9343232
880	0.9343367
884	0.9343501
888	0.9343635
892	0.9343767
896	0.9343899
900	0.934403
904	0.934416
908	0.934429
912	0.9344418
916	0.9344546
920	0.9344673
924	0.9344799
928	0.9344925
932	0.934505
936	0.9345174
940	0.9345298
944	0.9345421
948	0.9345543
952	0.9345665
956	0.9345786
960	0.9345907
964	0.9346027
968	0.9346146
972	0.9346265
976	0.9346384
980	0.9346502
984	0.9346619
988	0.9346736
992	0.9346853
996	0.9346969
1000	0.9347084
1004	0.9347199
1008	0.9347314
1012	0.9347428
1016	0.9347542
1020	0.9347656
1024	0.9347769
1028	0.9347882
1032	0.9347994
1036	0.9348106
1040	0.9348218
1044	0.9348329
1048	0.934844
1052	0.9348551
1056	0.9348661
1060	0.9348771
1064	0.9348881
1068	0.934899
1072	0.93491
1076	0.9349209
1080	0.9349317
1084	0.9349426
1088	0.9349534
1092	0.9349642
1096	0.934975
1100	0.9349857
1104	0.9349965
1108	0.9350072
1112	0.9350179
1116	0.9350285
1120	0.9350392
1124	0.9350498
1128	0.9350605
1132	0.9350773
1136	0.9350879
1140	0.9350984
1144	0.9351089
1148	0.9351194
1152	0.9351299
1156	0.9351404
1160	0.9351509
1164	0.9351614
1168	0.9351718
1172	0.9351822
1176	0.9351927
1180	0.9352031
1184	0.9352135
1188	0.9352239
1192	0.9352343
1196	0.9352446
1200	0.935255
1204	0.9352654
1208	0.9352757
1212	0.9352861
1216	0.9352964
1220	0.9353067
1224	0.9353171
1228	0.9353274
1232	0.9353377
1236	0.935348
1240	0.9353583
1244	0.9353687
1248	0.935379
1252	0.9353893
1256	0.9353996
1260	0.9354099
1264	0.9354202
1268	0.9354305
1272	0.9354408
1276	0.9354511
1280	0.9354613
1284	0.9354716
1288	0.9354819
1292	0.9354922
1296	0.9355025
1300	0.9355128
1304	0.9355231
1308	0.9355334
1312	0.9355437
1316	0.9355541
1320	0.9355644
1324	0.9355747
1328	0.935585
1332	0.9355953
1336	0.9356057
1340	0.935616
1344	0.9356263
1348	0.9356367
1352	0.9353332
1356	0.9345602
1360	0.9332734
1364	0.9299358
1368	0.9230576
1372	0.902426
1376	0.8649024
1380	0.8340325
1384	0.82794
1388	0.8400672
1392	0.857811
1396	0.8753799
1400	0.8921717
1404	0.9028258
1408	0.9118127
1412	0.9184291
1416	0.9232783
1420	0.9270507
1424	0.9305246
1428	0.9328755
1432	0.935163
1436	0.935866
1440	0.9358765
1444	0.935887
1448	0.9358976
1452	0.9359081
1456	0.9359187
1460	0.9359293
1464	0.9359399
1468	0.9359505
1472	0.9359611
1476	0.9359717
1480	0.9359823
1484	0.935993
1488	0.9360037
1492	0.9360143
1496	0.936025
1500	0.9360357
1504	0.9360464
1508	0.9360572
1512	0.9360679
1516	0.9360787
1520	0.9360894
1524	0.9361002
1528	0.936111
1532	0.9361218
1536	0.9361326
1540	0.9361435
1544	0.9361543
1548	0.9361652
1552	0.9361761
1556	0.936187
1560	0.9361979
1564	0.9362088
1568	0.9362198
1572	0.9362307
1576	0.9362417
1580	0.9362527
1584	0.9362637
1588	0.9362747
1592	0.9362858
1596	0.9362968
1600	0.9363079
1604	0.936319
1608	0.9363301
1612	0.9363412
1616	0.9363524
1620	0.9363635
1624	0.9363747
1628	0.9363859
1632	0.9363971
1636	0.9364084
1640	0.9364196
1644	0.9364309
1648	0.9364421
1652	0.9364534
1656	0.9364648
1660	0.9364761
1664	0.9364875
1668	0.9364988
1672	0.9365102
1676	0.9365216
1680	0.9365331
1684	0.9365445
1688	0.936556
1692	0.9365675
1696	0.936579
1700	0.9365905
1704	0.9366021
1708	0.9366136
1712	0.9366252
1716	0.9366368
1720	0.9366484
1724	0.9366601
1728	0.9366717
1732	0.9366834
1736	0.9366951
1740	0.9367069
1744	0.9367186
1748	0.9367304
1752	0.9367422
1756	0.936754
1760	0.9367658
1764	0.9367776
1768	0.9367895
1772	0.9368014
1776	0.9368133
1780	0.9368253
1784	0.9368372
1788	0.9368492
1792	0.9368612
1796	0.9368732
1800	0.9368852
1804	0.9368973
1808	0.9369094
1812	0.9369215
1816	0.9369336
1820	0.9369458
1824	0.9369579
1828	0.9369701
1832	0.9369824
1836	0.9369946
1840	0.9370069
1844	0.9370191
1848	0.9370314
1852	0.9370438
1856	0.9370561
1860	0.9370685
1864	0.9370809
1868	0.9370933
1872	0.9371058
1876	0.9371182
1880	0.9371307
1884	0.9371432
1888	0.9371558
1892	0.9371683
1896	0.9371809
1900	0.9371935
1904	0.9372061
1908	0.9372188
1912	0.9372315
1916	0.9372442
1920	0.9372569
1924	0.9372697
1928	0.9372824
1932	0.9372952
1936	0.937308
1940	0.9373209
1944	0.9373338
1948	0.9373467
1952	0.9373596
1956	0.9373725
1960	0.9373855
1964	0.9373985
1968	0.9374115
1972	0.9374245
1976	0.9374376
1980	0.9374507
1984	0.9374638
1988	0.9374769
1992	0.9374901
1996	0.9375033
2000	0.9375165
2004	0.9375298
2008	0.937543
2012	0.9375563
2016	0.9375696
2020	0.937583
2024	0.9375963
2028	0.9374335
2032	0.9365264
2036	0.9354505
2040	0.9347785
2044	0.9338066
2048	0.932733
2052	0.9320081
2056	0.931632
2060	0.9311811
2064	0.9310533
2068	0.9310899
2072	0.9311247
2076	0.9314097
2080	0.9314436
2084	0.9316953
2088	0.9315144
2092	0.9310897
2096	0.9308243
2100	0.9302549
2104	0.929679
2108	0.9290384
2112	0.9281536
2116	0.9274086
2120	0.9265572
2124	0.9250344
2128	0.9236924
2132	0.9216436
2136	0.9192122
2140	0.9159077
2144	0.9121925
2148	0.9068468
2152	0.9019995
2156	0.8971997
2160	0.8926555
2164	0.8876157
2168	0.8818845
2172	0.8752142
2176	0.8662242
2180	0.8545251
2184	0.836723
2188	0.8091286
2192	0.7690412
2196	0.7167547
2200	0.6596852
2204	0.6139362
2208	0.589387
2212	0.585317
2216	0.5955709
2220	0.6121924
2224	0.6299227
2228	0.6448044
2232	0.6546351
2236	0.6609428
2240	0.6650547
2244	0.6694484
2248	0.6759596
2252	0.6847458
2256	0.6960603
2260	0.7091839
2264	0.7238597
2268	0.7396078
2272	0.7549809
2276	0.7695471
2280	0.7837903
2284	0.7970098
2288	0.8086209
2292	0.8197319
2296	0.8295186
2300	0.8388249
2304	0.8473097
2308	0.8550414
2312	0.8612729
2316	0.867122
2320	0.8721785
2324	0.8766224
2328	0.880287
2332	0.8832035
2336	0.8860168
2340	0.8882117
2344	0.8901755
2348	0.8920687
2352	0.8930116
2356	0.8941389
2360	0.8948622
2364	0.8955471
2368	0.895991
2372	0.8959702
2376	0.89595
2380	0.8959202
2384	0.895078
2388	0.8939053
2392	0.8925707
2396	0.8898154
2400	0.8872192
2404	0.8838984
2408	0.880499
2412	0.8768869
2416	0.8731013
2420	0.86936
2424	0.8647291
2428	0.8607319
2432	0.8559697
2436	0.8513494
2440	0.8469512
2444	0.8426381
2448	0.838343
2452	0.8343211
2456	0.82996
2460	0.825863
2464	0.8214556
2468	0.8167157
2472	0.8117895
2476	0.8065759
2480	0.8007452
2484	0.7946188
2488	0.7877424
2492	0.7805767
2496	0.7729311
2500	0.7649792
2504	0.7560017
2508	0.746226
2512	0.7361458
2516	0.7256408
2520	0.7148307
2524	0.7038155
2528	0.6926587
2532	0.6810519
2536	0.6690191
2540	0.6579191
2544	0.6461519
2548	0.6335782
2552	0.6218707
2556	0.6120715
2560	0.6019141
2564	0.5904312
2568	0.5795234
2572	0.5705423
2576	0.5616818
2580	0.553148
2584	0.5447061
2588	0.5364854
2592	0.5278465
2596	0.5205195
2600	0.5132431
2603.72	0.4932682
2607.86	0.4858718
2611.72	0.4793473
2615.86	0.4715889
2619.73	0.4645576
2623.87	0.4538973
2627.73	0.4516888
2631.87	0.4391527
2635.73	0.4168752
2639.87	0.4088346
2643.73	0.3952054
2647.86	0.3865024
2651.72	0.3646111
2655.86	0.3353904
2659.71	0.310165
2663.85	0.2792847
2667.7	0.2413377
2671.83	0.1874455
2675.69	0.1570855
2679.82	0.0976815
2683.67	0.0669316
2687.8	0.0402818
2691.65	0.0145584
2695.78	0.0072616
2699.63	0.0043284
2703.76	0.0004057
2707.88	0.0088224
2711.73	0.0029977
2715.85	0.005092
2719.7	0.0027169
2723.82	0.0016298
2727.67	0.0005673
2731.79	0.0048254
2735.63	0.0012329
2739.75	0.0012872
2743.87	0.003426
2747.71	0.003043
2751.83	0.0090171
2755.67	0.0111929
2759.79	0.008981
2763.63	0.0117528
2767.74	0.0073373
2771.85	0.0039279
2775.69	0.0111514
2779.8	0.0045755
2783.64	0.0091968
2787.75	0.0053441
2791.86	0.0080569
2795.69	0.0053747
2799.8	0.0017787
2803.63	0.0030337
2807.74	0.0047525
2811.85	0.0012965
2815.68	0.0016677
2819.78	0.0176475
2823.61	0.0179632
2827.71	0.0301429
2831.82	0.0319289
2835.64	0.0467304
2839.74	0.0596491
2843.84	0.0820048
2847.67	0.1007268
2851.77	0.1168744
2855.59	0.1408713
2859.69	0.1696357
2863.78	0.196524
2867.6	0.2115654
2871.7	0.2458893
2875.79	0.2679568
2879.61	0.2944247
2883.7	0.3227975
2887.79	0.3438603
2891.61	0.3640373
2895.7	0.3819351
2899.79	0.4029507
2903.61	0.4253481
2907.69	0.4483471
2911.78	0.4652768
2915.59	0.4782848
2919.68	0.4953861
2923.76	0.5148142
2927.57	0.5257338
2931.66	0.5415393
2935.74	0.547556
2939.82	0.5617735
2943.63	0.5720993
2947.71	0.5821741
2951.78	0.5949015
2955.59	0.6067071
2959.67	0.6146032
2963.74	0.6237777
2967.55	0.6292432
2971.62	0.635876
2975.7	0.648795
2979.77	0.6508978
2983.57	0.6589637
2987.64	0.6621737
2991.71	0.6695965
2995.78	0.6813967
2999.58	0.6789766
3003.65	0.6960121
3007.71	0.7013086
3011.78	0.6988778
3015.57	0.7051275
3019.64	0.7061309
3023.7	0.7069936
3027.77	0.710416
3031.56	0.7175759
3035.62	0.7194883
3039.68	0.7297326
3043.74	0.728007
3047.53	0.7330263
3051.59	0.7383472
3055.65	0.7475179
3059.7	0.7493699
3063.76	0.7516041
3067.54	0.7595009
3071.6	0.7461935
3075.65	0.7513785
3079.7	0.7580493
3083.75	0.7599938
3087.54	0.7601493
3091.59	0.7629984
3095.63	0.7638966
3099.68	0.7619022
3103.73	0.768273
3107.51	0.762956
3111.55	0.7694025
3115.6	0.7795287
3119.64	0.7810866
3123.69	0.770836
3127.73	0.7734202
3131.5	0.7779184
3135.54	0.7774981
3139.58	0.7790327
3143.62	0.7758974
3147.66	0.7865991
3151.7	0.7862309
3155.73	0.7812359
3159.5	0.7852864
3163.53	0.7804273
3167.57	0.7873263
3171.6	0.7892684
3175.63	0.7894609
3179.66	0.7872859
3183.69	0.7924599
3187.72	0.7954773
3191.48	0.7888424
3195.51	0.7946879
3199.54	0.7965576
3203.56	0.7983638
3207.59	0.8003713
3211.61	0.8004096
3215.64	0.8055109
3219.66	0.8086062
3223.68	0.8103733
3227.7	0.8053143
3231.72	0.8078146
3235.47	0.8052734
3239.49	0.8100975
3243.51	0.8183681
3247.53	0.8102736
3251.54	0.8142311
3255.56	0.8114303
3259.57	0.8173533
3263.58	0.8062573
3267.6	0.8154946
3271.61	0.8145877
3275.62	0.8191846
3279.63	0.8170427
3283.63	0.8165717
3287.64	0.8190488
3291.65	0.8185289
3295.65	0.8166019
3299.66	0.8167563
3303.66	0.8187645
3307.67	0.8232637
3311.67	0.8237135
3315.67	0.8165212
3319.67	0.8199511
3323.67	0.825704
3327.67	0.8137446
3331.66	0.8262314
3335.66	0.8205527
3339.66	0.8231772
3343.65	0.8134395
3347.65	0.8172427
3351.64	0.8088578
3355.63	0.8064521
3359.62	0.8080239
3363.61	0.8144175
3367.6	0.8080442
3371.59	0.8123852
3375.58	0.802971
3379.56	0.806076
3383.55	0.8040527
3387.53	0.8051912
3391.52	0.8020007
3395.5	0.8039177
3399.48	0.7996147
3403.46	0.793373
3407.44	0.7902159
3411.42	0.7908195
3415.4	0.7836108
3419.64	0.7880535
3423.62	0.7736123
3427.59	0.7693921
3431.57	0.760003
3435.54	0.762726
3439.51	0.7577417
3443.49	0.7512764
3447.46	0.7496625
3451.43	0.7396032
3455.39	0.7355285
3459.63	0.7332805
3463.59	0.7307957
3467.56	0.7199211
3471.524	0.7167671
3475.49	0.7054699
3479.45	0.6994441
3483.41	0.6785457
3487.37	0.6820903
3491.6	0.6684686
3495.56	0.6527407
3499.51	0.6494172
3503.47	0.6424736
3507.43	0.6308602
3511.38	0.6250803
3515.6	0.6064975
3519.55	0.6024446
3523.51	0.58888
3527.46	0.5788871
3531.41	0.573112
3535.36	0.5631928
3539.57	0.5561083
3543.52	0.5427364
3547.46	0.5287751
3551.41	0.5299043
3555.35	0.5195829
3559.56	0.509702
3563.5	0.4962375
3567.442	0.4995062
3571.38	0.4848091
3575.58	0.4752917
3579.52	0.4667489
3583.46	0.4667808
3587.4	0.463757
3591.59	0.4570167
3595.53	0.452207
3599.46	0.4370142
3603.39	0.4460509
3607.59	0.4460196
3611.52	0.4260058
3615.45	0.4200247
3619.38	0.4186824
3623.57	0.4165213
3627.49	0.4068738
3631.42	0.3981487
3635.34	0.380878
3639.53	0.3802066
3643.45	0.3645597
3647.37	0.3591198
3651.55	0.3542477
3655.47	0.3505328
3659.39	0.3250711
3663.57	0.317613
3667.48	0.3088488
3671.4	0.2876869
3675.31	0.2871235
3679.49	0.2759774
3683.4	0.2693011
3687.31	0.2683395
3691.48	0.2444576
3695.39	0.2371522
3699.56	0.2332458
3703.46	0.2219091
3707.37	0.2298902
3711.54	0.21488
3715.44	0.204872
3719.34	0.201849
3723.5	0.1992271
3727.4	0.1857421
3731.3	0.1860188
3735.46	0.1866775
3739.36	0.1790705
3743.52	0.1795244
3747.41	0.1795116
3751.31	0.177118
3755.46	0.1638002
3759.35	0.162093
3763.5	0.1716566
3767.39	0.1686825
3771.28	0.1643776
3775.43	0.1648399
3779.31	0.1723468
3783.46	0.1653181
3787.34	0.1706857
3791.49	0.1684552
3795.37	0.1811418
3799.51	0.1721356
3803.39	0.1765528
3807.27	0.1663837
3811.41	0.1717832
3815.28	0.1710339
3819.42	0.1776433
3823.29	0.1663646
3827.43	0.1837201
3831.3	0.1760823
3835.43	0.1728904
3839.3	0.181131
3843.43	0.1736705
3847.3	0.1761326
3851.42	0.1861329
3855.29	0.1719778
3859.41	0.1769425
3863.27	0.1712662
3867.4	0.1736752
3871.26	0.1709076
3875.38	0.1719896
3879.49	0.1654185
3883.35	0.185806
3887.47	0.1767001
3891.32	0.1684645
3895.44	0.175132
3899.29	0.17089
3903.4	0.1657758
3907.25	0.1675332
3911.36	0.1740434
3915.47	0.1544516
3919.31	0.1680818
3923.42	0.1656899
3927.27	0.1529093
3931.37	0.1610977
3935.47	0.1561664
3939.31	0.1513393
3943.41	0.1604822
3947.25	0.1583266
3951.35	0.156919
3955.44	0.1589114
3959.28	0.1573513
3963.37	0.1462836
3967.46	0.1514742
3971.29	0.140185
3975.38	0.1446292
3979.21	0.1375234
3983.3	0.1398441
3987.39	0.1381552
3991.21	0.1278665
3995.3	0.1343799
3999.38	0.1300489
4003.46	0.1197994
4007.28	0.1224057
4011.36	0.1255699
4015.44	0.1154835
4019.26	0.1129582
4023.33	0.1104828
4027.4	0.1012279
4031.22	0.103106
4035.29	0.0999238
4039.36	0.0999403
4043.43	0.0837903
4047.24	0.1006806
4051.3	0.0826335
4055.37	0.0800515
4059.43	0.087647
4063.24	0.0733354
4067.3	0.062116
4071.36	0.0543764
4075.41	0.0737223
4079.217	0.057962
4083.27	0.0465022
4087.33	0.0544368
4091.38	0.0553272
4095.18	0.0557912
4099.23	0.047828
4103.28	0.0638327
4107.32	0.0390917
4111.37	0.0496089
4115.42	0.0441754
4119.21	0.038538
4123.25	0.0413102
4127.29	0.0354178
4131.33	0.0321881
4135.37	0.0373343
4139.41	0.0423726
4143.19	0.0216027
4147.22	0.0312561
4151.26	0.0350737
4155.29	0.0265125
4159.32	0.0389253
4163.35	0.0114458
4167.38	0.0298092
4171.16	0.0264262
4175.18	0.0247938
4179.21	0.0227881
4183.23	0.0198994
4187.25	0.0206254
4191.27	0.0228572
4195.29	0.0231732
4199.31	0.0139648
4203.33	0.014338
4207.34	0.0042148
4211.36	0.0123418
4215.37	0.0221286
4219.38	0.0211337
4223.14	0.013719
4227.15	0.0132671
4231.16	0.0170699
4235.16	0.0166187
4239.17	0.0166909
4243.17	0.018963
4247.17	0.0086998
4251.17	0.003646
4255.17	0.0201109
4259.17	0.0261631
4263.17	0.0245029
4267.17	0.020001
4271.16	0.0072942
4275.15	0.0195437
4279.14	0.0145061
4283.14	0.0187262
4287.12	0.0174098
4291.11	0.0111757
4295.35	0.0077418
4299.33	0.0126327
4303.32	0.008661
4307.3	0.0127188
4311.28	0.0152419
4315.26	0.0117848
4319.24	0.0015467
4323.21	0.0018049
4327.19	0.0003525
4331.16	0.0077203
4335.14	0.0102223
4339.11	0.0003921
4343.33	0.0056243
4347.3	0.0215705
4351.26	0.0005428
4355.23	0.00075
4359.19	0.0066861
4363.16	0.009982
4367.12	0.0127737
4371.33	0.0016077
4375.29	0.0124635
4379.24	0.0093448
4383.2	0.0085201
4387.15	0.0026739
4391.11	0.001795
4395.31	0.0064256
4399.26	0.0034418
4403.21	0.0035058
4407.16	0.0034717
4411.1	0.0092077
4415.29	4.8745E-06
4419.24	0.0006413
4423.18	0.0038212
4427.12	0.0015285
4431.31	0.0023219
4435.25	0.0117979
4439.18	0.0020096
4443.12	0.0028411
4447.3	0.0057553
4451.23	0.0036535
4455.16	0.0004645
4459.09	0.0049572
4463.27	0.0006206
4467.19	0.0070198
4471.12	0.0114338
4475.29	0.0138283
4479.21	0.0110999
4483.13	0.0015949
4487.05	0.0041054
4491.21	0.0148234
4495.13	0.0110902
4499.05	0.0060951
4503.21	0.0098407
4507.12	0.0034799
4511.27	0.0040687
4515.18	0.0027314
4519.09	0.0036312
4523.24	0.0070721
4527.15	0.0076484
4531.05	0.0003856
4535.2	0.005864
4539.1	0.0037783
4543.24	0.0014552
4547.14	0.0071333
4551.04	0.0025824
4555.18	0.0060767
4559.07	0.0003334
4563.21	0.0044434
4567.1	0.003517
4571.23	0.0017492
4575.12	0.0040991
4579.25	0.0001322
4583.13	0.0008242
4587.02	0.0004058
4591.14	0.0016364
4595.02	0.0114037
4599.14	3.01E-05
4603.02	0.0098069
4607.14	0.0014265
4611.02	0.0008049
4615.13	0.0104493
4619.24	0.0023084
4623.12	0.0054173
4627.23	0.0060103
4631.09	0.0118768
4635.2	0.0006015
4639.06	0.0007952
4643.17	0.0026617
4647.03	0.0044354
4651.13	0.0016439
4655.23	0.006596
4659.09	0.0050512
4663.18	0.0045302
4667.04	0.0036465
4671.13	0.0028974
4675.22	0.0013711
4679.07	0.0004236
4683.16	0.0031628
4687.01	0.0081226
4691.09	0.0079971
4695.17	0.0102981
4699.02	0.0032968
4703.096	0.0040226
4707.17	0.0012478
4711.01	0.001618
4715.09	0.0027877
4719.16	0.0123767
4722.99	0.0132284
4727.06	0.0107039
4731.13	0.0060996
4735.2	0.001422
4739.03	0.0011377
4743.09	0.0125454
4747.15	0.0030705
4750.97	0.0042227
4755.03	0.0052064
4759.09	0.0002765
4763.14	0.0030386
4766.96	0.0024049
4771.01	0.0019174
4775.06	0.0032899
4779.11	0.0054457
4783.16	0.0034126
4786.967	0.0050711
4791.01	0.0002008
4795.05	0.0012568
4799.09	0.0024581
4803.13	0.0028364
4807.17	0.0002447
4810.97	0.0026453
4815	0.0038845
4819.03	0.0015873
4823.06	0.0016624
4827.09	0.0003035
4831.12	0.0059093
4835.15	0.0081734
4839.17	0.0012571
4842.96	0.0053494
4846.98	0.006329
4850.99	0.0013228
4855.01	0.0047418
4859.03	0.0074219
4863.04	0.006857
4867.05	0.0021172
4871.06	0.0107056
4875.07	0.008018
4879.08	0.0013991
4883.08	0.0004614
4887.09	0.0054247
4891.09	0.0055255
4895.09	0.0029594
4899.09	0.005485
4903.08	9.57018E-06
4907.08	0.0007674
4911.07	0.0042814
4915.06	0.0051552
4919.05	0.0039532
4923.04	0.0001237
4927.02	0.0047711
4931.01	0.0013135
4934.99	0.0007934
4938.97	0.0096183
4942.95	0.0018299
4946.93	0.0080307
4950.9	6.01E-05
4955.11	0.0009165
4959.08	0.0026763
4963.05	0.0038832
4967.02	0.0040453
4970.99	0.0022374
4974.95	0.0037218
4978.92	0.0019839
4983.11	0.0030751
4987.07	0.007956
4991.03	0.0035064
4994.99	0.0012166
4998.94	0.0121026
5000.1	0.0122499